CV Measurement
:Program Version
13.8.2003 Moll, 4.2008 Fahrer, 6.2011 Gabrysch
:Program Library
CVIV.llb
:start
11/12/2017 12:42:59
:stop
11/12/2017 12:48:51
:elapsed [s]
352.4
:gpib bus delay [ms]
50
:device
W5-B230-S4
:tester
Andrea
:environment
Probe Station (28-2-019)
:comment
LGAD 50 microns, no irradiated, 20C, guard ring connected
:annealing time [min]
0
:material
p FZ
:temperature [C]
20.00
:ToolID
1102
:GuardRingConnection
1
:Region
0
:Instruments
V source: Keithley 237
- current compilance [A]: 1.000E-3
- integration time: 4 ms
- filter (averaging): 8
- source range: 1.1V
LCR meter: Agilent E4980A
- Frequency: 10000 Hz
- Signal level: 500 mV
- Averaging: 10
:LCR open correction: C[F] , G[S]
4.228E-11, 9.778E-9
:ramp up step [V], delay [s], down step [V], delay[s]
2.0, 1.0, 20.0, 0.5
:set voltage start [V], voltage stop [V], number of steps
-0.0, -100.0, 20
:measured voltage start [V], voltage stop [V], number of steps
-1.0, -140.0, 42
:step mode
voltages from file
:legend
V_detector [V]	Capacitance [F]	Conductivity [S]	Bias [V]	Current Power Supply [A]
BEGIN
-9.983739E-1	5.355393E-10	3.543042E-5	-1.000000E+0	-1.331900E-8
-1.498117E+0	5.279983E-10	3.187882E-5	-1.500000E+0	-1.542300E-8
-1.996225E+0	5.187433E-10	2.904282E-5	-2.000000E+0	-3.092100E-8
-2.495298E+0	5.087723E-10	2.673562E-5	-2.500000E+0	-3.851100E-8
-2.989172E+0	4.985923E-10	2.480762E-5	-3.000000E+0	-8.869100E-8
-3.490197E+0	4.882953E-10	2.312492E-5	-3.500000E+0	-8.029200E-8
-3.988653E+0	4.769153E-10	2.148262E-5	-4.000000E+0	-9.294000E-8
-4.485531E+0	4.671963E-10	2.022062E-5	-4.500000E+0	-1.185100E-7
-4.979557E+0	4.578713E-10	1.910332E-5	-5.000000E+0	-1.674400E-7
-5.971638E+0	4.401123E-10	1.718862E-5	-6.000000E+0	-2.323000E-7
-6.959232E+0	4.236103E-10	1.561252E-5	-7.000000E+0	-3.339200E-7
-7.944721E+0	4.071463E-10	1.419722E-5	-8.000000E+0	-4.527700E-7
-8.927449E+0	3.928973E-10	1.308352E-5	-9.000000E+0	-5.942400E-7
-9.909268E+0	3.795093E-10	1.211882E-5	-1.000000E+1	-7.431600E-7
-1.185448E+1	3.543773E-10	1.050772E-5	-1.200000E+1	-1.191900E-6
-1.377904E+1	3.327563E-10	9.313722E-6	-1.400000E+1	-1.809800E-6
-1.567097E+1	3.125313E-10	8.339742E-6	-1.600000E+1	-2.695000E-6
-1.754127E+1	2.948203E-10	7.589262E-6	-1.800000E+1	-3.757300E-6
-1.938375E+1	2.785683E-10	6.987092E-6	-2.000000E+1	-5.047500E-6
-2.118951E+1	2.630283E-10	6.484132E-6	-2.200000E+1	-6.638500E-6
-2.296951E+1	2.489793E-10	6.094082E-6	-2.400000E+1	-8.440400E-6
-2.470829E+1	2.353093E-10	5.776162E-6	-2.600000E+1	-1.058000E-5
-2.642870E+1	2.228193E-10	5.528562E-6	-2.800000E+1	-1.287000E-5
-2.810626E+1	2.105193E-10	5.312702E-6	-3.000000E+1	-1.551100E-5
-3.218387E+1	1.794003E-10	5.308072E-6	-3.500000E+1	-2.306600E-5
-3.488309E+1	8.284626E-11	1.635582E-5	-4.000000E+1	-4.191100E-5
-3.758608E+1	1.366303E-10	7.656552E-6	-4.500000E+1	-6.072500E-5
-4.028164E+1	1.001723E-10	1.176322E-5	-5.000000E+1	-7.960000E-5
-4.304617E+1	9.198526E-11	6.672642E-6	-5.500000E+1	-9.791000E-5
-4.674835E+1	2.140866E-11	2.251202E-6	-6.000000E+1	-1.085400E-4
-5.091448E+1	9.729060E-12	1.478482E-6	-6.500000E+1	-1.153700E-4
-5.524542E+1	6.165360E-12	1.132332E-6	-7.000000E+1	-1.208500E-4
-5.970456E+1	4.728360E-12	9.833542E-7	-7.500000E+1	-1.252800E-4
-6.418568E+1	3.781060E-12	9.033612E-7	-8.000000E+1	-1.295300E-4
-6.867779E+1	3.031060E-12	9.073422E-7	-8.500000E+1	-1.336900E-4
-7.311495E+1	2.652160E-12	9.842592E-7	-9.000000E+1	-1.383000E-4
-7.749840E+1	2.443160E-12	1.117992E-6	-9.500000E+1	-1.433500E-4
-8.185376E+1	2.650960E-12	1.194632E-6	-1.000000E+2	-1.486300E-4
-9.048880E+1	2.230660E-12	1.010432E-6	-1.100000E+2	-1.598100E-4
-9.906034E+1	2.216660E-12	7.765122E-7	-1.200000E+2	-1.715100E-4
-1.046883E+2	2.240660E-12	7.055682E-7	-1.300000E+2	-2.073200E-4
-1.088268E+2	2.174960E-12	6.664512E-7	-1.400000E+2	-2.553300E-4
END
