CV Measurement
:Program Version
13.8.2003 Moll, 4.2008 Fahrer, 6.2011 Gabrysch
:Program Library
CVIV.llb
:start
11/12/2017 12:29:55
:stop
11/12/2017 12:36:12
:elapsed [s]
376.3
:gpib bus delay [ms]
50
:device
W5-B230-S3
:tester
Andrea
:environment
Probe Station (28-2-019)
:comment
LGAD 50 microns, no irradiated, 20C, guard ring connected
:annealing time [min]
0
:material
p FZ
:temperature [C]
20.00
:ToolID
1102
:GuardRingConnection
1
:Region
0
:Instruments
V source: Keithley 237
- current compilance [A]: 1.000E-3
- integration time: 4 ms
- filter (averaging): 8
- source range: 1.1V
LCR meter: Agilent E4980A
- Frequency: 10000 Hz
- Signal level: 500 mV
- Averaging: 10
:LCR open correction: C[F] , G[S]
4.228E-11, 9.778E-9
:ramp up step [V], delay [s], down step [V], delay[s]
2.0, 1.0, 20.0, 0.5
:set voltage start [V], voltage stop [V], number of steps
-0.0, -100.0, 20
:measured voltage start [V], voltage stop [V], number of steps
-1.0, -140.0, 42
:step mode
voltages from file
:legend
V_detector [V]	Capacitance [F]	Conductivity [S]	Bias [V]	Current Power Supply [A]
BEGIN
-9.981120E-1	5.246863E-10	3.575322E-5	-1.000000E+0	-1.546400E-8
-1.497275E+0	5.165453E-10	3.187902E-5	-1.500000E+0	-2.232200E-8
-1.998554E+0	5.084083E-10	2.909022E-5	-2.000000E+0	-1.184000E-8
-2.498590E+0	4.994153E-10	2.681332E-5	-2.500000E+0	-1.154800E-8
-2.998526E+0	4.900503E-10	2.489102E-5	-3.000000E+0	-1.206900E-8
-3.498094E+0	4.804053E-10	2.321182E-5	-3.500000E+0	-1.560800E-8
-3.997892E+0	4.696633E-10	2.157952E-5	-4.000000E+0	-1.726900E-8
-4.495601E+0	4.604433E-10	2.031662E-5	-4.500000E+0	-3.603000E-8
-4.996669E+0	4.515663E-10	1.919972E-5	-5.000000E+0	-2.728200E-8
-5.997708E+0	4.345663E-10	1.727042E-5	-6.000000E+0	-1.877000E-8
-6.998272E+0	4.186773E-10	1.567032E-5	-7.000000E+0	-1.415500E-8
-7.997612E+0	4.027973E-10	1.422732E-5	-8.000000E+0	-1.955700E-8
-8.997389E+0	3.890333E-10	1.308142E-5	-9.000000E+0	-2.138600E-8
-9.996575E+0	3.760983E-10	1.208102E-5	-1.000000E+1	-2.805500E-8
-1.199542E+1	3.516523E-10	1.036582E-5	-1.200000E+1	-3.750900E-8
-1.399535E+1	3.306353E-10	9.048052E-6	-1.400000E+1	-3.810900E-8
-1.599164E+1	3.108823E-10	7.922542E-6	-1.600000E+1	-6.845600E-8
-1.798873E+1	2.933713E-10	7.007992E-6	-1.800000E+1	-9.228400E-8
-1.998728E+1	2.770833E-10	6.220602E-6	-2.000000E+1	-1.041900E-7
-2.198361E+1	2.612693E-10	5.509982E-6	-2.200000E+1	-1.342600E-7
-2.397855E+1	2.467133E-10	4.900212E-6	-2.400000E+1	-1.756800E-7
-2.597364E+1	2.321433E-10	4.329972E-6	-2.600000E+1	-2.159100E-7
-2.784724E+1	2.018803E-10	5.826062E-6	-2.800000E+1	-1.251200E-6
-2.887090E+1	1.095523E-10	1.784862E-5	-3.000000E+1	-9.248100E-6
-3.097640E+1	4.818086E-11	2.629442E-5	-3.500000E+1	-3.295600E-5
-3.300412E+1	9.742526E-11	1.722762E-5	-4.000000E+1	-5.730100E-5
-3.542912E+1	1.276953E-10	1.244432E-5	-4.500000E+1	-7.839200E-5
-3.797658E+1	1.071813E-10	1.406402E-5	-5.000000E+1	-9.848000E-5
-4.015996E+1	5.909826E-11	1.968392E-5	-5.500000E+1	-1.215500E-4
-4.247520E+1	1.076293E-10	1.208992E-5	-6.000000E+1	-1.435400E-4
-4.523607E+1	1.144853E-10	8.634922E-6	-6.500000E+1	-1.618800E-4
-4.841083E+1	6.139526E-11	4.473002E-6	-7.000000E+1	-1.768300E-4
-5.220824E+1	1.703076E-11	2.178782E-6	-7.500000E+1	-1.866800E-4
-5.628524E+1	9.729160E-12	1.766932E-6	-8.000000E+1	-1.942400E-4
-6.040741E+1	5.874760E-12	1.653762E-6	-8.500000E+1	-2.014300E-4
-6.450639E+1	3.770660E-12	1.349682E-6	-9.000000E+1	-2.088100E-4
-6.829159E+1	2.337760E-12	1.355412E-6	-9.500000E+1	-2.187600E-4
-7.212075E+1	2.075860E-12	1.122012E-6	-1.000000E+2	-2.283500E-4
-7.912344E+1	1.707260E-12	1.085512E-6	-1.100000E+2	-2.529000E-4
-8.697343E+1	2.113560E-12	1.156472E-6	-1.200000E+2	-2.705100E-4
-9.488692E+1	2.235860E-12	1.184482E-6	-1.300000E+2	-2.876000E-4
-1.019189E+2	2.101460E-12	1.323222E-6	-1.400000E+2	-3.119100E-4
END
