CV Measurement
:Program Version
13.8.2003 Moll, 4.2008 Fahrer, 6.2011 Gabrysch
:Program Library
CVIV.llb
:start
28/11/2017 16:15:50
:stop
28/11/2017 16:21:05
:elapsed [s]
315.0
:gpib bus delay [ms]
50
:device
W4-B222-S4
:tester
Esteban
:environment
Probe Station (28-2-019)
:comment
unirradiated, 20C, guard ring connected
:annealing time [min]
<not set>
:material
p FZ
:temperature [C]
20.00
:ToolID
1102
:GuardRingConnection
1
:Region
0
:Instruments
V source: Keithley 237
- current compilance [A]: 1.000E-3
- integration time: 4 ms
- filter (averaging): 8
- source range: 1.1V
LCR meter: Agilent E4980A
- Frequency: 10000 Hz
- Signal level: 500 mV
- Averaging: 10
:LCR open correction: C[F] , G[S]
4.439E-11, 1.791E-8
:ramp up step [V], delay [s], down step [V], delay[s]
2.0, 1.0, 20.0, 0.5
:set voltage start [V], voltage stop [V], number of steps
-0.0, -100.0, 20
:measured voltage start [V], voltage stop [V], number of steps
-1.0, -140.0, 42
:step mode
voltages from file
:legend
V_detector [V]	Capacitance [F]	Conductivity [S]	Bias [V]	Current Power Supply [A]
BEGIN
-9.565067E-1	1.160480E-9	2.704450E-6	-1.000000E+0	-3.562400E-7
-1.454366E+0	1.037550E-9	2.108980E-6	-1.500000E+0	-3.737700E-7
-1.952715E+0	9.469690E-10	1.761370E-6	-2.000000E+0	-3.873000E-7
-2.452281E+0	8.776360E-10	1.517850E-6	-2.500000E+0	-3.908500E-7
-2.951820E+0	8.215680E-10	1.335480E-6	-3.000000E+0	-3.946300E-7
-3.452320E+0	7.742060E-10	1.190530E-6	-3.500000E+0	-3.905300E-7
-3.952078E+0	7.291220E-10	1.060740E-6	-4.000000E+0	-3.925100E-7
-4.452318E+0	6.949860E-10	9.674690E-7	-4.500000E+0	-3.905500E-7
-4.953260E+0	6.650990E-10	8.890320E-7	-5.000000E+0	-3.828300E-7
-5.954058E+0	6.139720E-10	7.629050E-7	-6.000000E+0	-3.763000E-7
-6.954042E+0	5.720580E-10	6.675200E-7	-7.000000E+0	-3.764300E-7
-7.951490E+0	5.342510E-10	5.908340E-7	-8.000000E+0	-3.973300E-7
-8.950612E+0	5.041340E-10	5.424010E-7	-9.000000E+0	-4.045200E-7
-9.942925E+0	4.775560E-10	5.100350E-7	-1.000000E+1	-4.674800E-7
-1.192057E+1	4.317180E-10	4.039420E-7	-1.200000E+1	-6.505600E-7
-1.388404E+1	3.961380E-10	3.220380E-7	-1.400000E+1	-9.498000E-7
-1.584010E+1	3.649310E-10	2.733910E-7	-1.600000E+1	-1.309700E-6
-1.779423E+1	3.388580E-10	2.365640E-7	-1.800000E+1	-1.685400E-6
-1.974443E+1	3.157430E-10	2.057910E-7	-2.000000E+1	-2.093300E-6
-2.168808E+1	2.942130E-10	1.791420E-7	-2.200000E+1	-2.554800E-6
-2.363985E+1	2.751220E-10	1.568830E-7	-2.400000E+1	-2.949900E-6
-2.558616E+1	2.566750E-10	1.366170E-7	-2.600000E+1	-3.389600E-6
-2.753462E+1	2.397850E-10	1.191910E-7	-2.800000E+1	-3.811800E-6
-2.947581E+1	2.228280E-10	1.029200E-7	-3.000000E+1	-4.293500E-6
-3.433427E+1	1.805120E-10	6.710620E-8	-3.500000E+1	-5.452800E-6
-3.918443E+1	9.127100E-11	1.647630E-8	-4.000000E+1	-6.680100E-6
-4.403533E+1	9.588400E-12	-7.617500E-9	-4.500000E+1	-7.901300E-6
-4.887982E+1	9.334800E-12	-7.484300E-9	-5.000000E+1	-9.175000E-6
-5.372037E+1	9.238600E-12	-7.272000E-9	-5.500000E+1	-1.048100E-5
-5.856007E+1	9.177200E-12	-6.976300E-9	-6.000000E+1	-1.179400E-5
-6.340148E+1	9.131800E-12	-6.634700E-9	-6.500000E+1	-1.309300E-5
-6.822725E+1	9.095400E-12	-6.178800E-9	-7.000000E+1	-1.452000E-5
-7.305669E+1	9.065900E-12	-5.654600E-9	-7.500000E+1	-1.591700E-5
-7.787038E+1	9.040900E-12	-5.006200E-9	-8.000000E+1	-1.744300E-5
-8.269287E+1	9.020300E-12	-4.353700E-9	-8.500000E+1	-1.889700E-5
-8.750656E+1	9.002300E-12	-3.674000E-9	-9.000000E+1	-2.042300E-5
-9.231866E+1	8.986900E-12	-3.014600E-9	-9.500000E+1	-2.196200E-5
-9.712979E+1	8.969200E-12	-2.481100E-9	-1.000000E+2	-2.350900E-5
-1.053964E+2	8.239800E-12	4.378820E-7	-1.100000E+2	-3.770700E-5
-1.103661E+2	8.952700E-12	1.638510E-6	-1.200000E+2	-7.890800E-5
-1.183831E+2	9.008400E-12	1.901950E-6	-1.300000E+2	-9.515000E-5
-1.261269E+2	9.073400E-12	2.436710E-6	-1.400000E+2	-1.136300E-4
END
