CV Measurement
:Program Version
13.8.2003 Moll, 4.2008 Fahrer, 6.2011 Gabrysch
:Program Library
CVIV.llb
:start
30/01/2018 17:33:29
:stop
30/01/2018 17:39:42
:elapsed [s]
373.1
:gpib bus delay [ms]
50
:device
W4-B222-S2
:tester
Andrea
:environment
Probe Station (28-2-019)
:comment
LGAD 50 microns, irradiated, 1.7E14 p/cm2, -20C, guard ring connected
:annealing time [min]
0
:material
p FZ
:temperature [C]
-20.00
:ToolID
1102
:GuardRingConnection
1
:Region
0
:Instruments
V source: Keithley 237
- current compilance [A]: 1.000E-3
- integration time: 4 ms
- filter (averaging): 8
- source range: 1.1V
LCR meter: Agilent E4980A
- Frequency: 1000 Hz
- Signal level: 500 mV
- Averaging: 10
:LCR open correction: C[F] , G[S]
4.420E-11, -4.524E-10
:ramp up step [V], delay [s], down step [V], delay[s]
2.0, 1.0, 20.0, 0.5
:set voltage start [V], voltage stop [V], number of steps
-0.0, -100.0, 20
:measured voltage start [V], voltage stop [V], number of steps
-1.0, -0.0, 40
:step mode
voltages from file
:legend
V_detector [V]	Capacitance [F]	Conductivity [S]	Bias [V]	Current Power Supply [A]
BEGIN
-9.719242E-1	3.810390E-11	3.617224E-7	-1.000000E+0	-2.299600E-7
-1.955733E+0	5.223340E-11	4.448874E-7	-2.000000E+0	-3.625800E-7
-2.935070E+0	6.710100E-11	5.611604E-7	-3.000000E+0	-5.318200E-7
-3.913743E+0	8.446900E-11	6.979774E-7	-4.000000E+0	-7.065000E-7
-4.882317E+0	1.023460E-10	8.316264E-7	-5.000000E+0	-9.639000E-7
-5.853407E+0	1.213060E-10	9.658564E-7	-6.000000E+0	-1.200700E-6
-6.809503E+0	1.408030E-10	1.095332E-6	-7.000000E+0	-1.560300E-6
-7.764586E+0	1.622490E-10	1.228572E-6	-8.000000E+0	-1.928200E-6
-9.654314E+0	2.011820E-10	1.445022E-6	-1.000000E+1	-2.831400E-6
-1.151028E+1	2.376480E-10	1.616212E-6	-1.200000E+1	-4.011100E-6
-1.334808E+1	2.668220E-10	1.733162E-6	-1.400000E+1	-5.339700E-6
-1.512194E+1	2.892400E-10	1.805962E-6	-1.600000E+1	-7.191900E-6
-1.688043E+1	3.040880E-10	1.846992E-6	-1.800000E+1	-9.170000E-6
-1.863369E+1	3.127210E-10	1.867362E-6	-2.000000E+1	-1.119100E-5
-2.286501E+1	3.158130E-10	1.892902E-6	-2.500000E+1	-1.748700E-5
-2.696912E+1	3.045820E-10	1.881822E-6	-3.000000E+1	-2.482500E-5
-3.096969E+1	2.881400E-10	1.830022E-6	-3.500000E+1	-3.301100E-5
-3.493241E+1	2.698940E-10	1.733612E-6	-4.000000E+1	-4.150700E-5
-3.884129E+1	2.502900E-10	1.579702E-6	-4.500000E+1	-5.044400E-5
-4.277886E+1	2.304270E-10	1.352342E-6	-5.000000E+1	-5.914600E-5
-4.681960E+1	2.103240E-10	9.566574E-7	-5.500000E+1	-6.700300E-5
-5.104690E+1	1.090130E-10	3.209044E-7	-6.000000E+1	-7.333200E-5
-5.539237E+1	5.045230E-11	2.099694E-7	-6.500000E+1	-7.869300E-5
-5.972710E+1	2.953680E-11	1.413604E-7	-7.000000E+1	-8.414200E-5
-6.836116E+1	1.689360E-11	8.120550E-8	-8.000000E+1	-9.533000E-5
-7.688998E+1	1.436200E-11	6.574830E-8	-9.000000E+1	-1.073800E-4
-8.531868E+1	1.327760E-11	5.732130E-8	-1.000000E+2	-1.202500E-4
-9.357279E+1	1.278710E-11	5.332530E-8	-1.100000E+2	-1.345500E-4
-1.016902E+2	1.246350E-11	4.964450E-8	-1.200000E+2	-1.499700E-4
-1.096598E+2	1.224030E-11	4.813590E-8	-1.300000E+2	-1.666000E-4
-1.174768E+2	1.198690E-11	4.694080E-8	-1.400000E+2	-1.844800E-4
-1.325493E+2	1.161160E-11	4.668640E-8	-1.600000E+2	-2.248400E-4
-1.469161E+2	1.123310E-11	5.257400E-8	-1.800000E+2	-2.709800E-4
-1.605967E+2	1.095520E-11	6.613270E-8	-2.000000E+2	-3.227400E-4
-1.735802E+2	9.595300E-12	1.060624E-7	-2.200000E+2	-3.802100E-4
-1.857286E+2	-8.677900E-12	3.713734E-7	-2.400000E+2	-4.445200E-4
-1.968245E+2	-2.350900E-12	3.813954E-7	-2.600000E+2	-5.174500E-4
-2.077471E+2	5.730000E-12	2.886464E-7	-2.800000E+2	-5.918000E-4
-2.182962E+2	7.916600E-12	2.616714E-7	-3.000000E+2	-6.692100E-4
-3.290692E-1	2.386660E-11	8.659334E-7	-0.000000E+0	2.695300E-6
END
