CV Measurement
:Program Version
13.8.2003 Moll, 4.2008 Fahrer, 6.2011 Gabrysch
:Program Library
CVIV.llb
:start
30/01/2018 17:03:08
:stop
30/01/2018 17:09:17
:elapsed [s]
369.4
:gpib bus delay [ms]
50
:device
W4-B222-S1
:tester
Andrea
:environment
Probe Station (28-2-019)
:comment
LGAD 50 microns, irradiated, 1.7E14 p/cm2, -20C, guard ring connected
:annealing time [min]
0
:material
p FZ
:temperature [C]
-20.00
:ToolID
1102
:GuardRingConnection
1
:Region
0
:Instruments
V source: Keithley 237
- current compilance [A]: 1.000E-3
- integration time: 4 ms
- filter (averaging): 8
- source range: 1.1V
LCR meter: Agilent E4980A
- Frequency: 1000 Hz
- Signal level: 500 mV
- Averaging: 10
:LCR open correction: C[F] , G[S]
4.420E-11, -4.524E-10
:ramp up step [V], delay [s], down step [V], delay[s]
2.0, 1.0, 20.0, 0.5
:set voltage start [V], voltage stop [V], number of steps
-0.0, -100.0, 20
:measured voltage start [V], voltage stop [V], number of steps
-1.0, -0.0, 40
:step mode
voltages from file
:legend
V_detector [V]	Capacitance [F]	Conductivity [S]	Bias [V]	Current Power Supply [A]
BEGIN
-9.882867E-1	2.875240E-11	4.913044E-7	-1.000000E+0	-9.594000E-8
-1.983305E+0	2.622210E-11	3.802894E-7	-2.000000E+0	-1.367400E-7
-2.983598E+0	2.626410E-11	3.689814E-7	-3.000000E+0	-1.343400E-7
-3.982472E+0	2.190560E-11	3.397434E-7	-4.000000E+0	-1.435700E-7
-4.980142E+0	2.274430E-11	3.333474E-7	-5.000000E+0	-1.626500E-7
-5.977517E+0	6.410300E-12	2.025204E-7	-6.000000E+0	-1.841500E-7
-6.968829E+0	2.423170E-11	3.246204E-7	-7.000000E+0	-2.553100E-7
-7.960212E+0	3.639250E-11	3.389684E-7	-8.000000E+0	-3.258900E-7
-9.941803E+0	5.467030E-11	3.987564E-7	-1.000000E+1	-4.766700E-7
-1.191695E+1	7.341500E-11	4.917714E-7	-1.200000E+1	-6.802500E-7
-1.389387E+1	7.617000E-11	5.615524E-7	-1.400000E+1	-8.693000E-7
-1.585538E+1	1.120160E-10	6.408224E-7	-1.600000E+1	-1.184500E-6
-1.781645E+1	1.295950E-10	6.875514E-7	-1.800000E+1	-1.503400E-6
-1.977101E+1	1.449250E-10	7.177314E-7	-2.000000E+1	-1.875600E-6
-2.462114E+1	1.720130E-10	7.415594E-7	-2.500000E+1	-3.103100E-6
-2.943266E+1	1.815520E-10	7.270114E-7	-3.000000E+1	-4.646900E-6
-3.420999E+1	1.787070E-10	6.929804E-7	-3.500000E+1	-6.470700E-6
-3.898455E+1	1.683950E-10	5.342814E-7	-4.000000E+1	-8.317200E-6
-4.390339E+1	5.726800E-11	8.635910E-8	-4.500000E+1	-8.982000E-6
-4.887555E+1	2.460890E-11	5.240020E-8	-5.000000E+1	-9.210000E-6
-5.385419E+1	1.768140E-11	4.631490E-8	-5.500000E+1	-9.385000E-6
-5.883636E+1	1.534590E-11	4.218320E-8	-6.000000E+1	-9.531000E-6
-6.381402E+1	1.443160E-11	3.848530E-8	-6.500000E+1	-9.714000E-6
-6.879900E+1	1.406170E-11	3.527830E-8	-7.000000E+1	-9.837000E-6
-7.875957E+1	1.387670E-11	3.004430E-8	-8.000000E+1	-1.016000E-5
-8.872086E+1	1.407280E-11	2.876790E-8	-9.000000E+1	-1.047700E-5
-9.868045E+1	1.443700E-11	3.121670E-8	-1.000000E+2	-1.080800E-5
-1.086276E+2	1.453020E-11	3.399030E-8	-1.100000E+2	-1.124100E-5
-1.185680E+2	1.481380E-11	4.028410E-8	-1.200000E+2	-1.172900E-5
-1.284872E+2	1.510640E-11	5.116480E-8	-1.300000E+2	-1.239100E-5
-1.383507E+2	1.300730E-11	1.147584E-7	-1.400000E+2	-1.350900E-5
-1.573966E+2	1.373060E-11	1.882584E-7	-1.600000E+2	-2.132400E-5
-1.767448E+2	1.749770E-11	1.961074E-7	-1.800000E+2	-2.666200E-5
-1.958696E+2	1.945430E-11	2.284364E-7	-2.000000E+2	-3.383100E-5
-2.128681E+2	-4.622400E-12	1.162884E-7	-2.200000E+2	-5.841500E-5
-2.301035E+2	1.075000E-11	2.459144E-7	-2.400000E+2	-8.105900E-5
-2.487457E+2	1.082770E-11	2.971394E-7	-2.600000E+2	-9.218000E-5
-2.675163E+2	1.081840E-11	3.581604E-7	-2.800000E+2	-1.022500E-4
-2.842687E+2	9.900000E+37	9.900000E+37	-3.000000E+2	-1.288500E-4
-3.337208E-1	2.325320E-11	7.462554E-7	-0.000000E+0	2.733400E-6
END
