CV Measurement
:Program Version
13.8.2003 Moll, 4.2008 Fahrer, 6.2011 Gabrysch
:Program Library
CVIV.llb
:start
30/01/2018 17:54:05
:stop
30/01/2018 18:00:18
:elapsed [s]
373.0
:gpib bus delay [ms]
50
:device
W4-B222-S3
:tester
Andrea
:environment
Probe Station (28-2-019)
:comment
LGAD 50 microns, irradiated, 1.7E14 p/cm2, -20C, guard ring connected
:annealing time [min]
0
:material
p FZ
:temperature [C]
-20.00
:ToolID
1102
:GuardRingConnection
1
:Region
0
:Instruments
V source: Keithley 237
- current compilance [A]: 1.000E-3
- integration time: 4 ms
- filter (averaging): 8
- source range: 1.1V
LCR meter: Agilent E4980A
- Frequency: 1000 Hz
- Signal level: 500 mV
- Averaging: 10
:LCR open correction: C[F] , G[S]
4.420E-11, -4.524E-10
:ramp up step [V], delay [s], down step [V], delay[s]
2.0, 1.0, 20.0, 0.5
:set voltage start [V], voltage stop [V], number of steps
-0.0, -100.0, 20
:measured voltage start [V], voltage stop [V], number of steps
-1.0, -0.0, 40
:step mode
voltages from file
:legend
V_detector [V]	Capacitance [F]	Conductivity [S]	Bias [V]	Current Power Supply [A]
BEGIN
-9.949992E-1	2.449140E-11	3.451964E-7	-1.000000E+0	-4.096000E-8
-1.994735E+0	2.440670E-11	3.371644E-7	-2.000000E+0	-4.312800E-8
-2.992764E+0	2.446970E-11	3.314004E-7	-3.000000E+0	-5.926700E-8
-3.991020E+0	2.464730E-11	3.276004E-7	-4.000000E+0	-7.355300E-8
-4.988687E+0	2.481390E-11	3.249034E-7	-5.000000E+0	-9.266000E-8
-5.986006E+0	2.498200E-11	3.226574E-7	-6.000000E+0	-1.146200E-7
-6.976952E+0	2.518860E-11	3.232344E-7	-7.000000E+0	-1.887800E-7
-7.968197E+0	2.539130E-11	3.237374E-7	-8.000000E+0	-2.604900E-7
-9.940434E+0	2.585830E-11	3.306034E-7	-1.000000E+1	-4.878900E-7
-1.188757E+1	2.628860E-11	3.425984E-7	-1.200000E+1	-9.209000E-7
-1.380903E+1	2.734970E-11	3.540154E-7	-1.400000E+1	-1.564200E-6
-1.572862E+1	3.035180E-11	3.593534E-7	-1.600000E+1	-2.222800E-6
-1.763380E+1	3.667340E-11	3.592564E-7	-1.800000E+1	-2.999400E-6
-1.952719E+1	4.607140E-11	3.833304E-7	-2.000000E+1	-3.872600E-6
-2.418908E+1	7.438400E-11	4.859584E-7	-2.500000E+1	-6.642000E-6
-2.879314E+1	1.015440E-10	5.439434E-7	-3.000000E+1	-9.885000E-6
-3.330844E+1	1.163850E-10	5.571224E-7	-3.500000E+1	-1.385500E-5
-3.780336E+1	5.038230E-11	2.005334E-7	-4.000000E+1	-1.799200E-5
-4.220597E+1	2.755090E-11	1.182964E-7	-4.500000E+1	-2.288500E-5
-4.671102E+1	2.049150E-11	1.037814E-7	-5.000000E+1	-2.693900E-5
-5.120276E+1	1.899440E-11	9.928150E-8	-5.500000E+1	-3.110200E-5
-5.565616E+1	1.855190E-11	9.606110E-8	-6.000000E+1	-3.557900E-5
-6.009332E+1	1.834690E-11	9.334600E-8	-6.500000E+1	-4.018900E-5
-6.448581E+1	1.816180E-11	9.118780E-8	-7.000000E+1	-4.516500E-5
-7.317370E+1	1.790090E-11	8.942570E-8	-8.000000E+1	-5.591200E-5
-8.170398E+1	1.767020E-11	9.151170E-8	-9.000000E+1	-6.795000E-5
-9.005528E+1	1.739430E-11	1.004984E-7	-1.000000E+2	-8.145400E-5
-9.801076E+1	1.636340E-11	1.300054E-7	-1.100000E+2	-9.820000E-5
-1.058778E+2	1.392240E-11	2.252914E-7	-1.200000E+2	-1.156700E-4
-1.135691E+2	1.282880E-11	2.774044E-7	-1.300000E+2	-1.345800E-4
-1.210162E+2	1.237430E-11	3.127114E-7	-1.400000E+2	-1.554900E-4
-1.354379E+2	1.309710E-11	3.688744E-7	-1.600000E+2	-2.011800E-4
-1.491259E+2	1.376690E-11	4.303864E-7	-1.800000E+2	-2.528800E-4
-1.621289E+2	1.451340E-11	4.971114E-7	-2.000000E+2	-3.101900E-4
-1.743554E+2	1.585120E-11	5.681454E-7	-2.200000E+2	-3.738600E-4
-1.850644E+2	2.121160E-10	1.440342E-6	-2.400000E+2	-4.499600E-4
-1.960688E+2	2.229790E-10	1.797022E-6	-2.600000E+2	-5.236400E-4
-2.064054E+2	1.669450E-10	1.429942E-6	-2.800000E+2	-6.027900E-4
-2.164233E+2	5.025050E-11	8.114224E-7	-3.000000E+2	-6.845500E-4
-3.290203E-1	2.289040E-11	8.564614E-7	-0.000000E+0	2.694900E-6
END
