CV Measurement
:Program Version
13.8.2003 Moll, 4.2008 Fahrer, 6.2011 Gabrysch
:Program Library
CVIV.llb
:start
11/12/2017 11:52:43
:stop
11/12/2017 11:59:01
:elapsed [s]
378.0
:gpib bus delay [ms]
50
:device
W5-B230-S1
:tester
Andrea
:environment
Probe Station (28-2-019)
:comment
LGAD 50 microns, no irradiated, 20C, guard ring connected
:annealing time [min]
0
:material
p FZ
:temperature [C]
20.00
:ToolID
1102
:GuardRingConnection
1
:Region
0
:Instruments
V source: Keithley 237
- current compilance [A]: 1.000E-3
- integration time: 4 ms
- filter (averaging): 8
- source range: 1.1V
LCR meter: Agilent E4980A
- Frequency: 10000 Hz
- Signal level: 500 mV
- Averaging: 10
:LCR open correction: C[F] , G[S]
4.228E-11, 9.778E-9
:ramp up step [V], delay [s], down step [V], delay[s]
2.0, 1.0, 20.0, 0.5
:set voltage start [V], voltage stop [V], number of steps
-0.0, -100.0, 20
:measured voltage start [V], voltage stop [V], number of steps
-1.0, -140.0, 42
:step mode
voltages from file
:legend
V_detector [V]	Capacitance [F]	Conductivity [S]	Bias [V]	Current Power Supply [A]
BEGIN
-9.966271E-1	5.209683E-10	3.526052E-5	-1.000000E+0	-2.762600E-8
-1.498008E+0	5.144203E-10	3.181072E-5	-1.500000E+0	-1.631600E-8
-1.998536E+0	5.062033E-10	2.904242E-5	-2.000000E+0	-1.198900E-8
-2.496632E+0	4.972403E-10	2.678182E-5	-2.500000E+0	-2.758900E-8
-3.001141E+0	4.878923E-10	2.487252E-5	-3.000000E+0	9.348900E-9
-3.497640E+0	4.783863E-10	2.320472E-5	-3.500000E+0	-1.933100E-8
-3.998505E+0	4.678623E-10	2.157992E-5	-4.000000E+0	-1.224500E-8
-4.495029E+0	4.587903E-10	2.032012E-5	-4.500000E+0	-4.071700E-8
-4.998059E+0	4.500623E-10	1.920622E-5	-5.000000E+0	-1.589500E-8
-5.997913E+0	4.332743E-10	1.728162E-5	-6.000000E+0	-1.709700E-8
-6.997908E+0	4.175843E-10	1.568622E-5	-7.000000E+0	-1.713300E-8
-7.997222E+0	4.018773E-10	1.424602E-5	-8.000000E+0	-2.275100E-8
-8.996725E+0	3.882323E-10	1.310072E-5	-9.000000E+0	-2.682500E-8
-9.996601E+0	3.753813E-10	1.209882E-5	-1.000000E+1	-2.784200E-8
-1.199559E+1	3.510933E-10	1.038242E-5	-1.200000E+1	-3.616100E-8
-1.399413E+1	3.301853E-10	9.062452E-6	-1.400000E+1	-4.810500E-8
-1.599258E+1	3.105003E-10	7.934182E-6	-1.600000E+1	-6.073900E-8
-1.798946E+1	2.930503E-10	7.017942E-6	-1.800000E+1	-8.634000E-8
-1.998770E+1	2.768063E-10	6.228552E-6	-2.000000E+1	-1.007400E-7
-2.198468E+1	2.610293E-10	5.516712E-6	-2.200000E+1	-1.254700E-7
-2.398028E+1	2.465043E-10	4.905822E-6	-2.400000E+1	-1.614900E-7
-2.597566E+1	2.319443E-10	4.334432E-6	-2.600000E+1	-1.993400E-7
-2.797049E+1	2.181443E-10	3.828642E-6	-2.800000E+1	-2.417100E-7
-2.996218E+1	2.037803E-10	3.338362E-6	-3.000000E+1	-3.098000E-7
-3.477952E+1	1.493613E-10	4.516742E-6	-3.500000E+1	-1.805900E-6
-3.747237E+1	9.922926E-11	9.723112E-6	-4.000000E+1	-2.070300E-5
-4.127980E+1	2.126316E-11	9.385772E-7	-4.500000E+1	-3.047100E-5
-4.556203E+1	-5.946040E-12	1.080082E-6	-5.000000E+1	-3.635000E-5
-4.959947E+1	-5.504040E-12	8.000732E-7	-5.500000E+1	-4.423400E-5
-5.329689E+1	-1.461140E-12	5.345762E-7	-6.000000E+1	-5.490300E-5
-5.729344E+1	8.851600E-13	7.252092E-7	-6.500000E+1	-6.312200E-5
-6.138216E+1	2.119060E-12	7.251422E-7	-7.000000E+1	-7.058600E-5
-6.577012E+1	2.535960E-12	8.614252E-7	-7.500000E+1	-7.559900E-5
-7.010912E+1	2.369460E-12	9.386142E-7	-8.000000E+1	-8.101300E-5
-7.442139E+1	2.231060E-12	9.818182E-7	-8.500000E+1	-8.664600E-5
-7.871156E+1	2.314060E-12	8.966222E-7	-9.000000E+1	-9.246000E-5
-8.298756E+1	2.072860E-12	8.257562E-7	-9.500000E+1	-9.839000E-5
-8.729898E+1	2.310060E-12	7.144082E-7	-1.000000E+2	-1.040300E-4
-9.589861E+1	2.226560E-12	5.919722E-7	-1.100000E+2	-1.155000E-4
-1.032993E+2	2.057160E-12	5.346592E-7	-1.200000E+2	-1.367900E-4
-1.076819E+2	2.040260E-12	5.132522E-7	-1.300000E+2	-1.828000E-4
-1.114480E+2	1.986860E-12	4.946052E-7	-1.400000E+2	-2.338600E-4
END
