CV Measurement
:Program Version
13.8.2003 Moll, 4.2008 Fahrer, 6.2011 Gabrysch
:Program Library
CVIV.llb
:start
11/12/2017 12:02:19
:stop
11/12/2017 12:08:43
:elapsed [s]
383.9
:gpib bus delay [ms]
50
:device
W5-B230-S1
:tester
Andrea
:environment
Probe Station (28-2-019)
:comment
LGAD 50 microns, no irradiated, 20C, guard ring connected
:annealing time [min]
0
:material
p FZ
:temperature [C]
20.00
:ToolID
1102
:GuardRingConnection
1
:Region
0
:Instruments
V source: Keithley 237
- current compilance [A]: 1.000E-3
- integration time: 4 ms
- filter (averaging): 8
- source range: 1.1V
LCR meter: Agilent E4980A
- Frequency: 10000 Hz
- Signal level: 500 mV
- Averaging: 10
:LCR open correction: C[F] , G[S]
4.228E-11, 9.778E-9
:ramp up step [V], delay [s], down step [V], delay[s]
2.0, 1.0, 20.0, 0.5
:set voltage start [V], voltage stop [V], number of steps
-0.0, -100.0, 20
:measured voltage start [V], voltage stop [V], number of steps
-1.0, -140.0, 42
:step mode
voltages from file
:legend
V_detector [V]	Capacitance [F]	Conductivity [S]	Bias [V]	Current Power Supply [A]
BEGIN
-9.981412E-1	5.217383E-10	3.529152E-5	-1.000000E+0	-1.522500E-8
-1.498898E+0	5.148193E-10	3.182272E-5	-1.500000E+0	-9.027000E-9
-1.998374E+0	5.063783E-10	2.905712E-5	-2.000000E+0	-1.331800E-8
-2.498279E+0	4.972713E-10	2.679872E-5	-2.500000E+0	-1.409300E-8
-3.000964E+0	4.879133E-10	2.488882E-5	-3.000000E+0	7.898600E-9
-3.498751E+0	4.784063E-10	2.321752E-5	-3.500000E+0	-1.023100E-8
-4.000874E+0	4.678943E-10	2.159232E-5	-4.000000E+0	7.160200E-9
-4.498635E+0	4.588433E-10	2.033132E-5	-4.500000E+0	-1.118300E-8
-4.998817E+0	4.501113E-10	1.921642E-5	-5.000000E+0	-9.690000E-9
-5.998801E+0	4.333473E-10	1.729192E-5	-6.000000E+0	-9.819000E-9
-6.997349E+0	4.176313E-10	1.569282E-5	-7.000000E+0	-2.171400E-8
-7.997758E+0	4.019123E-10	1.425082E-5	-8.000000E+0	-1.836100E-8
-8.997419E+0	3.882533E-10	1.310342E-5	-9.000000E+0	-2.114100E-8
-9.996927E+0	3.753993E-10	1.210112E-5	-1.000000E+1	-2.516800E-8
-1.199563E+1	3.511223E-10	1.038472E-5	-1.200000E+1	-3.579900E-8
-1.399378E+1	3.302273E-10	9.065652E-6	-1.400000E+1	-5.097100E-8
-1.599179E+1	3.105363E-10	7.936822E-6	-1.600000E+1	-6.726800E-8
-1.798930E+1	2.930763E-10	7.019752E-6	-1.800000E+1	-8.767200E-8
-1.998809E+1	2.768303E-10	6.230152E-6	-2.000000E+1	-9.757000E-8
-2.198416E+1	2.610533E-10	5.518192E-6	-2.200000E+1	-1.297400E-7
-2.398024E+1	2.465303E-10	4.907312E-6	-2.400000E+1	-1.618700E-7
-2.597450E+1	2.319633E-10	4.335572E-6	-2.600000E+1	-2.088300E-7
-2.797060E+1	2.181593E-10	3.829982E-6	-2.800000E+1	-2.407900E-7
-2.996318E+1	2.037983E-10	3.339662E-6	-3.000000E+1	-3.016200E-7
-3.474467E+1	1.481993E-10	5.146902E-6	-3.500000E+1	-2.091300E-6
-3.750509E+1	1.041603E-10	9.649172E-6	-4.000000E+1	-2.043500E-5
-4.130617E+1	2.051936E-11	9.359192E-7	-4.500000E+1	-3.025500E-5
-4.565469E+1	-5.782040E-12	1.123332E-6	-5.000000E+1	-3.559100E-5
-4.951669E+1	-9.589840E-12	8.932642E-7	-5.500000E+1	-4.491200E-5
-5.320117E+1	-2.987440E-12	8.542212E-7	-6.000000E+1	-5.568700E-5
-5.724655E+1	1.031060E-12	6.242942E-7	-6.500000E+1	-6.350600E-5
-6.149961E+1	1.840260E-12	7.854572E-7	-7.000000E+1	-6.962400E-5
-6.580198E+1	2.522060E-12	8.520992E-7	-7.500000E+1	-7.533800E-5
-7.013696E+1	2.403460E-12	9.364032E-7	-8.000000E+1	-8.078500E-5
-7.447194E+1	2.270960E-12	9.608952E-7	-8.500000E+1	-8.623200E-5
-7.872377E+1	2.338360E-12	9.227042E-7	-9.000000E+1	-9.236000E-5
-8.303762E+1	2.084060E-12	8.619852E-7	-9.500000E+1	-9.798000E-5
-8.733805E+1	2.166960E-12	7.416912E-7	-1.000000E+2	-1.037100E-4
-9.591692E+1	2.200060E-12	5.800282E-7	-1.100000E+2	-1.153500E-4
-1.032602E+2	2.093760E-12	5.360502E-7	-1.200000E+2	-1.371100E-4
-1.076673E+2	2.025760E-12	5.108972E-7	-1.300000E+2	-1.829200E-4
-1.114651E+2	1.977160E-12	4.964552E-7	-1.400000E+2	-2.337200E-4
END
