CV Measurement
:Program Version
13.8.2003 Moll, 4.2008 Fahrer, 6.2011 Gabrysch
:Program Library
CVIV.llb
:start
11/12/2017 12:10:46
:stop
11/12/2017 12:16:00
:elapsed [s]
314.2
:gpib bus delay [ms]
50
:device
W5-B230-S2
:tester
Andrea
:environment
Probe Station (28-2-019)
:comment
LGAD 50 microns, no irradiated, 20C, guard ring connected
:annealing time [min]
0
:material
p FZ
:temperature [C]
20.00
:ToolID
1102
:GuardRingConnection
1
:Region
0
:Instruments
V source: Keithley 237
- current compilance [A]: 1.000E-3
- integration time: 4 ms
- filter (averaging): 8
- source range: 1.1V
LCR meter: Agilent E4980A
- Frequency: 10000 Hz
- Signal level: 500 mV
- Averaging: 10
:LCR open correction: C[F] , G[S]
4.228E-11, 9.778E-9
:ramp up step [V], delay [s], down step [V], delay[s]
2.0, 1.0, 20.0, 0.5
:set voltage start [V], voltage stop [V], number of steps
-0.0, -100.0, 20
:measured voltage start [V], voltage stop [V], number of steps
-1.0, -140.0, 42
:step mode
voltages from file
:legend
V_detector [V]	Capacitance [F]	Conductivity [S]	Bias [V]	Current Power Supply [A]
BEGIN
-9.979396E-1	5.218353E-10	3.532002E-5	-1.000000E+0	-1.687600E-8
-1.497509E+0	5.149373E-10	3.185312E-5	-1.500000E+0	-2.040400E-8
-1.998316E+0	5.064293E-10	2.907492E-5	-2.000000E+0	-1.379600E-8
-2.497474E+0	4.973103E-10	2.681652E-5	-2.500000E+0	-2.069300E-8
-3.000477E+0	4.879463E-10	2.490652E-5	-3.000000E+0	3.909500E-9
-3.496472E+0	4.783693E-10	2.323662E-5	-3.500000E+0	-2.889300E-8
-3.995736E+0	4.678373E-10	2.161202E-5	-4.000000E+0	-3.492500E-8
-4.497111E+0	4.587853E-10	2.035312E-5	-4.500000E+0	-2.366600E-8
-4.997544E+0	4.500273E-10	1.923282E-5	-5.000000E+0	-2.011900E-8
-5.998288E+0	4.332953E-10	1.731072E-5	-6.000000E+0	-1.402000E-8
-6.998064E+0	4.175823E-10	1.571082E-5	-7.000000E+0	-1.585700E-8
-7.997674E+0	4.018803E-10	1.426832E-5	-8.000000E+0	-1.905300E-8
-8.997025E+0	3.882503E-10	1.312212E-5	-9.000000E+0	-2.436400E-8
-9.997412E+0	3.754003E-10	1.211872E-5	-1.000000E+1	-2.119400E-8
-1.199511E+1	3.511413E-10	1.040162E-5	-1.200000E+1	-4.002100E-8
-1.399450E+1	3.302383E-10	9.081472E-6	-1.400000E+1	-4.508500E-8
-1.599043E+1	3.105743E-10	7.954882E-6	-1.600000E+1	-7.841600E-8
-1.798840E+1	2.930743E-10	7.039812E-6	-1.800000E+1	-9.498000E-8
-1.998091E+1	2.768013E-10	6.256232E-6	-2.000000E+1	-1.563300E-7
-2.197282E+1	2.610213E-10	5.553072E-6	-2.200000E+1	-2.226300E-7
-2.396417E+1	2.465113E-10	4.950692E-6	-2.400000E+1	-2.934400E-7
-2.594740E+1	2.319963E-10	4.388892E-6	-2.600000E+1	-4.308200E-7
-2.793089E+1	2.181963E-10	3.900882E-6	-2.800000E+1	-5.660500E-7
-2.948854E+1	1.589833E-10	9.721092E-6	-3.000000E+1	-4.189200E-6
-3.183982E+1	1.260593E-10	1.321162E-5	-3.500000E+1	-2.588400E-5
-3.451486E+1	1.136273E-10	1.370482E-5	-4.000000E+1	-4.492700E-5
-3.665759E+1	7.352826E-11	1.962472E-5	-4.500000E+1	-6.833000E-5
-3.881411E+1	6.506826E-11	1.921332E-5	-5.000000E+1	-9.162000E-5
-4.106953E+1	9.528326E-11	1.377232E-5	-5.500000E+1	-1.141000E-4
-4.341529E+1	4.384746E-11	1.802952E-5	-6.000000E+1	-1.358400E-4
-4.569635E+1	7.124926E-11	1.200482E-5	-6.500000E+1	-1.581100E-4
-4.864158E+1	4.842026E-11	4.855362E-6	-7.000000E+1	-1.749400E-4
-5.212278E+1	6.223960E-12	4.025072E-6	-7.500000E+1	-1.873800E-4
-5.470661E+1	7.091160E-12	4.738952E-6	-8.000000E+1	-2.071700E-4
-5.799125E+1	6.038060E-12	2.741112E-6	-8.500000E+1	-2.212200E-4
-6.178744E+1	3.795560E-12	2.566812E-6	-9.000000E+1	-2.310800E-4
-6.537852E+1	-3.147640E-12	3.518752E-6	-9.500000E+1	-2.426200E-4
-6.864729E+1	-6.137640E-12	3.254502E-6	-1.000000E+2	-2.568000E-4
-7.618229E+1	-3.964540E-12	3.034182E-6	-1.100000E+2	-2.769900E-4
-8.323382E+1	-1.226440E-12	2.749772E-6	-1.200000E+2	-3.011400E-4
-9.011442E+1	8.232600E-13	2.850282E-6	-1.300000E+2	-3.266900E-4
-9.609399E+1	8.951600E-13	3.111362E-6	-1.400000E+2	-3.596200E-4
END
